Folder: Interference_Raman_Amplification/raman_ampli/assets/data_indices

Note: README.md
# Raman Amplification

## Installation

```
pip install git+https://github.com/CEA-MetroCarac/raman_ampli.git
```

## Execution

```
raman_ampli
```

then, select a **input_MODEL.xlsx** or similar file.
(Example of such a file is given [here](https://github.com/CEA-MetroCarac/raman_ampli/tree/main/raman_ampli/assets/input_MODEL.xlsx) to copy/paste into your project directory).

Or, from python scripting:

- using *.xlsx* files:

```
from raman_ampli.main import launcher

launcher(['..../input_MODEL1.xlsx', '..../input_MODEL2.xlsx', ...]) 
```

- without *.xlsx* file : refers to examples [here](https://github.com/CEA-MetroCarac/raman_ampli/tree/main/raman_ampli/examples)

## Acknowledgements

Part of this work, carried out on the CEA - Platform for Nanocharacterisation (PFNC), was supported by the “Recherche Technologique de Base” program of the French National Research Agency (ANR).

File: RefractiveIndexINFO_SiO2.csv
wl,n
0.2600,1.50213
0.2744,1.49604
0.2888,1.491
0.3032,1.48678
0.3176,1.48319
0.3320,1.48012
0.3464,1.47746
0.3608,1.47514
0.3752,1.4731
0.3896,1.4713
0.4040,1.4697
0.4184,1.46826
0.4328,1.46697
0.4472,1.46581
0.4616,1.46476
0.4760,1.4638
0.4904,1.46292
0.5048,1.46211
0.5192,1.46137
0.5336,1.46069
0.5480,1.46005
0.5624,1.45946
0.5768,1.45891
0.5912,1.4584
0.6056,1.45791
0.6200,1.45746
0.6344,1.45703
0.6488,1.45663
0.6632,1.45625
0.6776,1.45588
0.6920,1.45554
0.7064,1.45521
0.7208,1.45489
0.7352,1.45459
0.7496,1.4543
0.7640,1.45402
0.7784,1.45375
0.7928,1.4535
0.8072,1.45325
0.8216,1.453
0.8360,1.45277
0.8504,1.45254
0.8648,1.45232
0.8792,1.4521
0.8936,1.45189
0.9080,1.45168
0.9224,1.45148
0.9368,1.45128
0.9512,1.45108
0.9656,1.45089
0.9800,1.4507
0.9944,1.45052
1.009,1.45033
1.023,1.45016
1.038,1.44997
1.052,1.4498
1.066,1.44963
1.081,1.44945
1.095,1.44928
1.110,1.4491
1.124,1.44894
1.138,1.44877
1.153,1.4486
1.167,1.44843
1.182,1.44826
1.196,1.4481
1.210,1.44794
1.225,1.44777
1.239,1.44761
1.254,1.44743
1.268,1.44727
1.282,1.44711
1.297,1.44694
1.311,1.44678
1.326,1.44661
1.340,1.44645
1.354,1.44629
1.369,1.44612
1.383,1.44595
1.398,1.44578
1.412,1.44562
1.426,1.44546
1.441,1.44528
1.455,1.44512
1.470,1.44494
1.484,1.44478
1.498,1.44461
1.513,1.44443
1.527,1.44427
1.542,1.44409
1.556,1.44392
1.570,1.44375
1.585,1.44356
1.599,1.44339
1.614,1.44321
1.628,1.44304
1.642,1.44286
1.657,1.44268
1.671,1.4425
1.686,1.44231
1.700,1.44213